Folder: Kamaehu_evo_2025/Fluid_inclusion_Data/Raman/Kamae'huakanaloa_12-02-24/Spectra

Note: Fluid_inclusion_Data/Raman/Kamae'huakanaloa_12-02-24/Spectra/11 KA961_c101_a1_FIB_CRR_DiadFit.txt
1042.414189	680.0
1042.980685	679.5
1043.547124	678.5
1044.113505	680.75
1044.679828	679.0
1045.246093	677.75
1045.8123	675.25
1046.378449	675.25
1046.94454	677.75
1047.510573	676.0
1048.076548	674.5
1048.642465	674.75
1049.208325	675.25
1049.774126	674.75
1050.339869	671.25
1050.905555	673.75
1051.471183	673.25
1052.036752	670.75
1052.602264	673.5
1053.167718	676.75
1053.733114	672.5
1054.298452	671.0
1054.863733	674.5
1055.428955	672.5
1055.994119	670.5
1056.559226	673.5
1057.124275	670.25
1057.689266	675.5
1058.254199	672.25
1058.819074	671.25
1059.383891	667.5
1059.94865	669.75
1060.513352	673.5
1061.077996	672.0
1061.642582	672.25
1062.20711	673.5
1062.77158	672.5
1063.335992	671.5
1063.900347	669.0
1064.464643	670.25
1065.028882	669.75
1065.593063	669.5
1066.157187	670.25
1066.721252	667.0
1067.28526	669.75
1067.84921	670.0
1068.413102	668.5
1068.976936	670.75
1069.540713	671.25
1070.104431	678.0
1070.668092	670.25
1071.231696	667.25
1071.795241	668.75
1072.358729	670.75
1072.922159	669.5
1073.485531	667.25
1074.048845	669.5
1074.612102	669.0
1075.175301	671.5
1075.738442	667.75
1076.301525	669.25
1076.864551	669.75
1077.427519	667.0
1077.990429	669.5
1078.553281	668.0
1079.116076	667.0
1079.678813	668.5
1080.241492	670.75
1080.804114	668.75
1081.366678	669.5
1081.929184	666.0
1082.491633	668.25
1083.054024	666.25
1083.616357	669.75
1084.178632	667.0
1084.74085	667.0
1085.30301	666.0
1085.865113	668.0
1086.427158	668.5
1086.989145	669.75
1087.551074	668.5
1088.112946	669.25
1088.67476	670.0
1089.236517	671.0
1089.798216	668.25
1090.359857	666.75
1090.92144	669.25
1091.482966	668.5
1092.044435	671.0
1092.605845	669.0
1093.167199	664.5
1093.728494	668.5
1094.289732	669.0
1094.850912	670.0
1095.412035	683.5
1095.9731	669.0
1096.534107	665.0
1097.095057	675.0
1097.65595	666.25
1098.216784	669.5
1098.777561	666.75
1099.338281	671.5
1099.898943	669.25
1100.459547	669.5
1101.020094	672.5
1101.580584	667.0
1102.141015	670.25
1102.701389	668.25
1103.261706	667.75
1103.821965	669.75
1104.382167	669.0
1104.942311	667.5
1105.502397	669.0
1106.062426	670.5
1106.622398	672.25
1107.182312	670.0
1107.742168	669.75
1108.301967	671.25
1108.861708	667.5
1109.421392	670.5
1109.981019	671.25
1110.540587	669.75
1111.100099	668.75
1111.659553	668.75
1112.218949	667.5
1112.778288	666.0
1113.33757	668.0
1113.896794	669.75
1114.45596	669.75
1115.015069	669.25
1115.574121	669.5
1116.133115	670.0
1116.692052	669.25
1117.250931	672.25
1117.809753	664.5
1118.368517	670.5
1118.927224	669.75
1119.485873	670.0
1120.044465	669.25
1120.603	666.5
1121.161477	668.5
1121.719897	668.0
1122.278259	666.5
1122.836564	668.25
1123.394812	670.5
1123.953002	667.5
1124.511135	666.75
1125.06921	667.25
1125.627228	670.0
1126.185189	669.25
1126.743092	665.75
1127.300938	666.25
1127.858726	668.25
1128.416457	668.25
1128.974131	668.5
1129.531748	668.75
1130.089307	666.5
1130.646808	665.0
1131.204252	667.0
1131.761639	667.0
1132.318969	671.75
1132.876241	663.75
1133.433456	669.0
1133.990614	6

Note: Fluid_inclusion_Data/Raman/Kamae'huakanaloa_12-02-24/Spectra/16 KA961_c102_a1_FIB_r3_CRR_DiadFit.txt
1042.414189	679.5
1042.980685	674.75
1043.547124	672.75
1044.113505	671.5
1044.679828	676.75
1045.246093	672.0
1045.8123	674.25
1046.378449	672.75
1046.94454	672.75
1047.510573	670.75
1048.076548	669.25
1048.642465	670.0
1049.208325	666.5
1049.774126	665.25
1050.339869	666.5
1050.905555	669.0
1051.471183	668.75
1052.036752	669.25
1052.602264	664.75
1053.167718	666.25
1053.733114	665.75
1054.298452	667.75
1054.863733	667.5
1055.428955	666.5
1055.994119	665.0
1056.559226	665.0
1057.124275	664.25
1057.689266	665.5
1058.254199	664.0
1058.819074	665.75
1059.383891	666.25
1059.94865	665.5
1060.513352	667.75
1061.077996	663.25
1061.642582	665.5
1062.20711	665.25
1062.77158	666.5
1063.335992	664.0
1063.900347	663.5
1064.464643	665.5
1065.028882	665.75
1065.593063	665.75
1066.157187	665.25
1066.721252	663.5
1067.28526	663.25
1067.84921	663.75
1068.413102	666.0
1068.976936	665.25
1069.540713	664.25
1070.104431	671.75
1070.668092	665.5
1071.231696	664.75
1071.795241	665.0
1072.358729	662.75
1072.922159	663.75
1073.485531	664.5
1074.048845	665.25
1074.612102	662.75
1075.175301	661.75
1075.738442	663.25
1076.301525	662.25
1076.864551	664.0
1077.427519	662.5
1077.990429	663.25
1078.553281	663.5
1079.116076	663.0
1079.678813	663.75
1080.241492	662.25
1080.804114	663.0
1081.366678	664.0
1081.929184	662.25
1082.491633	666.0
1083.054024	662.0
1083.616357	661.75
1084.178632	666.5
1084.74085	663.5
1085.30301	661.5
1085.865113	664.5
1086.427158	666.0
1086.989145	663.0
1087.551074	665.75
1088.112946	662.75
1088.67476	663.5
1089.236517	664.25
1089.798216	662.75
1090.359857	665.0
1090.92144	664.0
1091.482966	663.75
1092.044435	663.25
1092.605845	665.25
1093.167199	662.25
1093.728494	661.0
1094.289732	660.5
1094.850912	663.5
1095.412035	676.0
1095.9731	663.5
1096.534107	661.0
1097.095057	669.25
1097.65595	664.5
1098.216784	663.0
1098.777561	663.75
1099.338281	662.25
1099.898943	664.75
1100.459547	662.75
1101.020094	663.0
1101.580584	663.25
1102.141015	661.25
1102.701389	662.0
1103.261706	662.5
1103.821965	661.5
1104.382167	663.75
1104.942311	663.75
1105.502397	661.75
1106.062426	663.75
1106.622398	663.75
1107.182312	663.75
1107.742168	663.5
1108.301967	664.5
1108.861708	662.75
1109.421392	664.0
1109.981019	662.5
1110.540587	662.0
1111.100099	664.0
1111.659553	659.25
1112.218949	663.75
1112.778288	663.75
1113.33757	662.0
1113.896794	664.25
1114.45596	663.0
1115.015069	664.5
1115.574121	663.25
1116.133115	664.0
1116.692052	664.75
1117.250931	663.75
1117.809753	663.75
1118.368517	662.5
1118.927224	663.75
1119.485873	663.75
1120.044465	661.5
1120.603	662.25
1121.161477	662.25
1121.719897	665.25
1122.278259	663.75
1122.836564	661.25
1123.394812	664.25
1123.953002	661.0
1124.511135	660.5
1125.06921	660.5
1125.627228	662.75
1126.185189	664.0
1126.743092	660.5
1127.300938	664.25
1127.858726	662.0
1128.416457	662.5
1128.974131	662.5
1129.531748	661.25
1130.089307	661.5
1130.646808	663.25
1131.204252	664.25
1131.761639	661.75
1132.318969	662.25
1132.876241	663.5
1133.433456	662.0


Note: README.md
# Kamaehu_evo_2025
This is geobarometric and chemical data associated from Kama ªehuakanaloa. It was collected by C. Devitre

File: 32 KA961_c106_a2_FIB_epoxygross_CRR_DiadFit.txt
1042.41	716.5
1044.68	712.25
1046.94	707.5
1049.21	706.0
1051.47	702.75
1053.73	704.75
1055.99	702.75
1058.25	691.25
1060.51	693.5
1062.77	693.25
1065.03	701.5
1067.29	696.75
1069.54	693.5
1071.8	694.25
1074.05	693.25
1076.3	695.0
1078.55	697.25
1080.8	699.0
1083.05	703.25
1085.3	699.5
1087.55	704.25
1089.8	696.25
1092.04	700.25
1094.29	696.75
1096.53	700.75
1098.78	693.0
1101.02	702.25
1103.26	702.25
1105.5	712.75
1107.74	718.5
1109.98	733.75
1112.22	745.5
1114.46	741.25
1116.69	730.75
1118.93	718.5
1121.16	708.75
1123.39	702.75
1125.63	704.75
1127.86	704.25
1130.09	696.0
1132.32	695.25
1134.55	697.0
1136.78	694.0
1139	691.0
1141.23	693.5
1143.45	691.75
1145.68	694.25
1147.9	694.25
1150.12	694.0
1152.34	695.75
1154.57	694.5
1156.78	690.5
1159	696.25
1161.22	693.25
1163.44	691.75
1165.65	691.25
1167.87	694.5
1170.08	692.25
1172.3	691.5
1174.51	694.75
1176.72	698.75
1178.93	702.75
1181.14	711.5
1183.35	729.5
1185.56	721.75
1187.76	723.0
1189.97	714.5
1192.17	704.0
1194.38	696.75
1196.58	698.0
1198.78	687.0
1200.98	688.75
1203.19	692.5
1205.38	687.75
1207.58	695.75
1209.78	696.75
1211.98	691.25
1214.17	700.25
1216.37	702.0
1218.56	708.25
1220.76	706.5
1222.95	710.0
1225.14	707.25
1227.33	713.75
1229.52	715.5
1231.71	715.25
1233.9	714.75
1236.08	709.5
1238.27	709.0
1240.45	704.25
1242.64	708.0
1244.82	706.5
1247	707.75
1249.18	707.25
1251.36	710.25
1253.54	706.5
1255.72	707.5
1257.9	707.25
1260.62	702.25
1262.8	701.25
1264.97	701.75
1267.15	697.0
1269.32	696.0
1271.49	698.75
1273.66	693.5
1275.83	694.25
1278	695.5
1280.17	697.25
1282.34	698.25
1284.51	724.0
1286.67	706.75
1288.84	707.0
1291	707.25
1293.16	708.75
1295.33	710.5
1297.49	708.25
1299.65	708.75
1301.81	708.0
1303.97	708.0
1306.12	704.25
1308.28	702.25
1310.44	698.75
1312.59	698.25
1314.74	699.25
1316.9	696.25
1319.05	692.25
1321.2	687.75
1323.35	689.5
1325.5	687.5
1327.65	688.25
1329.8	688.75
1331.95	685.75
1334.09	687.25
1336.24	688.0
1338.38	690.0
1340.52	686.0
1342.67	686.0
1344.81	687.0
1346.95	686.75
1349.09	690.25
1351.23	691.0
1353.37	688.0
1355.5	687.5
1357.64	685.75
1359.77	687.0
1361.91	686.75
1364.04	682.25
1366.18	686.0
1368.31	687.0
1370.44	688.0
1372.57	688.5
1374.7	682.75
1376.83	691.75
1378.95	685.0
1381.08	684.75
1383.21	688.0
1385.33	691.5
1387.45	700.75
1389.58	719.0
1391.7	685.5
1393.82	686.75
1395.94	689.0
1398.06	691.0
1400.18	690.25
1402.29	688.25
1404.41	683.25
1406.53	687.0
1408.64	690.5
1410.76	690.0
1412.87	688.5
1414.98	690.25
1417.09	688.0
1419.2	690.25
1421.31	683.75
1423.42	689.75
1425.53	689.75
1427.64	685.75
1429.74	691.5
1431.85	695.0
1433.95	694.25
1436.06	697.25
1438.16	699.5
1440.26	698.25
1442.36	700.75
1444.46	702.75
1446.56	701.25
1448.66	705.0
1450.75	705.25
1452.85	706.25
1454.95	710.25
1457.04	705.5
1459.13	711.75
1461.23	707.75
1463.32	718.5
1465.41	709.0
1467.5	705.5
1469.59	700.5
1471.68	696.25
1473.77	699.5
1475.85	695.25
1477.94	694.5
1480.02	689.5
1482.11	686.5
1484.19	688.0
1486.27	685.5
1488.35	687.75
1490.43	681.25
1492.51	685.25
1494.59	683.25
1496.67	680.75
1498.75	683.25
1500.82	678.25
1502.9	683.25
1504.97	683.5
1507.05	682.75
1509.12	682.75
1511.19	682.5
1513.26	678.25
1515.33	681.5
1517.4	682.0
1519.47	680.0
1521.54	678.5
1523.6	682.0
1525.67	681.25
1527.73	682.25
1529.8	682.0
1531.86	676.25
1533.92	680.5
1535.98	681.75
1538.04	678.75
1540.1	678.25
1542.16	678.75
1544.22	677.5
1546.28	679.25
1548.33	679.25
1550.39	678.5
1552.44	679.5
1554.5	685.5
1556.55	681.5
1558.6	680.5
1560.65	683.75
1562.7	681.25
1564.75	682.25
1566.8	681.75
1568.85	685.0
1570.89	680.5
1572.94	683.75
1574.98	683.75
1577.03	680.0
1579.07	691.0
1581.11	694.5
1583.15	693.75
1585.19	687.25
1587.23	686.0
1589.27	687.0
1591.31	684.75
1592.33	689.5